File: inliers0.01.csv
Cement (kg/m3),Water/Binder Ratio,Fine Aggregate (kg/m3),Coarse Aggregate (kg/m3),Recycled course aggregate percentage (%),SCM (kg/m3),Superplasticizer (kg/m3),Natural  fiber (%),Fiber Type,Length (mm),Age (day),Split Tensile Strength (MPa)
380.0,0.35,950.0,650.0,50,0.0,8.0,0.0,0,0,7,3.17
380.0,0.35,950.0,650.0,50,0.0,8.0,0.0,0,0,28,3.601
375.0,0.51,815.0,995.0,0,0.0,0.0,0.0,0,0,28,2.35
315.0,0.6,885.0,980.0,0,0.0,0.0,0.0,0,0,28,2.5
260.0,0.73,1000.0,925.0,0,0.0,0.0,0.0,0,0,28,2.3
410.0,0.5,835.0,870.0,100,0.0,0.0,0.0,0,0,28,2.5
340.0,0.6,960.0,820.0,100,0.0,0.0,0.0,0,0,28,2.15
350.0,0.5,752.0,1065.0,0,0.0,1.05,0.0,0,0,28,2.8
350.0,0.5,752.0,1065.0,100,0.0,1.05,0.0,0,0,28,2.5
280.0,0.5,752.0,1065.0,100,70.0,0.84,0.0,0,0,28,2.4
280.0,0.5,752.0,1065.0,100,70.0,0.84,0.0,0,0,28,3.0
280.0,0.5,752.0,1065.0,100,70.0,0.84,0.0,0,0,28,2.7
400.0,0.52,662.0,1014.0,0,0.0,0.0,0.0,0,0,7,3.6
400.0,0.52,662.0,1016.0,15,0.0,0.0,0.0,0,0,7,3.3
400.0,0.52,662.0,995.0,30,0.0,0.0,0.0,0,0,7,3.3
400.0,0.52,662.0,956.0,60,0.0,0.0,0.0,0,0,7,3.2
400.0,0.52,662.0,903.0,100,0.0,0.0,0.0,0,0,7,3.5
400.0,0.52,662.0,1014.0,0,0.0,0.0,0.0,0,0,28,3.7
400.0,0.52,662.0,1016.0,15,0.0,0.0,0.0,0,0,28,3.7
400.0,0.52,662.0,995.0,30,0.0,0.0,0.0,0,0,28,3.6
400.0,0.52,662.0,956.0,60,0.0,0.0,0.0,0,0,28,3.4
400.0,0.52,662.0,903.0,100,0.0,0.0,0.0,0,0,28,3.3
400.0,0.52,662.0,1014.0,0,0.0,0.0,0.0,0,0,90,3.9
400.0,0.52,662.0,1016.0,15,0.0,0.0,0.0,0,0,90,3.9
400.0,0.52,662.0,995.0,30,0.0,0.0,0.0,0,0,90,3.9
400.0,0.52,662.0,956.0,60,0.0,0.0,0.0,0,0,90,3.7
400.0,0.52,662.0,903.0,100,0.0,0.0,0.0,0,0,90,3.6
400.0,0.52,662.0,1014.0,0,0.0,0.0,0.0,0,0,180,4.1
400.0,0.52,662.0,1016.0,15,0.0,0.0,0.0,0,0,180,4.1
400.0,0.52,662.0,995.0,30,0.0,0.0,0.0,0,0,180,4.0
400.0,0.52,662.0,956.0,60,0.0,0.0,0.0,0,0,180,3.9
400.0,0.52,662.0,903.0,100,0.0,0.0,0.0,0,0,180,3.9
380.0,0.44,784.0,1025.0,0,0.0,2.69,0.0,0,0,7,3.2
380.0,0.44,784.0,1025.0,0,0.0,2.69,0.0,0,0,28,3.8
380.0,0.44,784.0,1025.0,0,0.0,2.69,0.0,0,0,172,4.1
380.0,0.44,784.0,1025.0,0,0.0,2.69,0.0,0,0,193,4.1
380.0,0.44,784.0,1025.0,0,0.0,2.69,0.0,0,0,255,4.2
380.0,0.44,784.0,1025.0,0,0.0,2.69,0.0,0,0,345,4.3
300.0,0.4,763.0,1366.0,0,0.0,0.0,0.0,0,0,28,3.95162
300.0,0.4,763.0,1315.0,25,0.0,0.0,0.0,0,0,28,3.73846
300.0,0.4,763.0,1253.0,50,0.0,0.0,0.0,0,0,28,3.41606
300.0,0.4,763.0,1150.0,100,0.0,0.0,0.0,0,0,28,3.26152
350.0,0.4,728.0,1304.0,0,0.0,0.0,0.0,0,0,28,4.56445
350.0,0.4,728.0,1258.0,25,0.0,0.0,0.0,0,0,28,4.39659
350.0,0.4,728.0,1202.0,50,0.0,0.0,0.0,0,0,28,4.16744
350.0,0.4,728.0,1090.0,100,0.0,0.0,0.0,0,0,28,3.76777
450.0,0.4,658.0,1179.0,0,0.0,0.0,0.0,0,0,28,5.60627
450.0,0.4,658.0,1134.0,25,0.0,0.0,0.0,0,0,28,5.10268
450.0,0.4,658.0,1089.0,50,0.0,0.0,0.0,0,0,28,5.08669
450.0,0.4,658.0,990.0,100,0.0,0.0,0.0,0,0,28,4.53514
300.0,0.45,748.0,1340.0,0,0.0,0.0,0.0,0,0,28,3.69186
300.0,0.45,748.0,1285.0,25,0.0,0.0,0.0,0,0,28,3.60303
300.0,0.45,748.0,1230.0,50,0.0,0.0,0.0,0,0,28,3.39142
300.0,0.45,748.0,1120.0,100,0.0,0.0,0.0,0,0,28,3.18241
350.0,0.45,711.0,1273.0,0,0.0,0.0,0.0,0,0,28,4.23265
350.0,0.45,711.0,1225.0,25,0.0,0.0,0.0,0,0,28,4.06806
350.0,0.45,711.0,1177.0,50,0.0,0.0,0.0,0,0,28,3.75195
350.0,0.45,711.0,1070.0,100,0.0,0.0,0.0,0,0,28,3.54294
450.0,0.45,636.0,1140.0,0,0.0,0.0,0.0,0,0,28,4.88056
450.0,0.45,636.0,1095.0,25,0.0,0.0,0.0,0,0,28,4.78912
450.0,0.45,636.0,1050.0,50,0.0,0.0,0.0,0,0,28,4.38418
450.0,0.45,636.0,960.0,100,0.0,0.0,0.0,0,0,28,4.06806
300.0,0.5,734.0,1314.0,0,0.0,0.0,0.0,0,0,28,3.47361
300.0,0.5,734.0,1265.0,25,0.0,0.0,0.0,0,0,28,3.39839
300.0,0.5,734.0,1207.0,50,0.0,0.0,0.0,0,0,28,3.1442
300.0,0.5,734.0,1100.0,100,0.0,0.0,0.0,0,0,28,2.98079
350.0,0.5,694.0,1243.0,0,0.0,0.0,0.0,0,0,28,4.15837
350.0,0.5,694.0,1192.0,25,0.0,0.0,0.0,0,0,28,4.07018
350.0,0.5,694.0,1141.0,50,0.0,0.0,0.0,0,0,28,3.75633
350.0,0.5,694.0,1040.0,100,0.0,0.0,0.0,0,0,28,3.53327
450.0,0.5,614.0,1100.0,0,0.0,0.0,0.0,0,0,28,4.23359
450.0,0.5,614.0,1055.0,25,0.0,0.0,0.0,0,0,28,4.14281
450.0,0.5,614.0,1010.0,50,0.0,0.0,0.0,0,0,28,3.84452
450.0,0.5,614.0,920.0,100,0.0,0.0,0.0,0,0,28,3.63702
394.0,0.47,732.84,988.94,0,0.0,0.0,0.0,0,0,7,3.24
394.0,0.47,732.84,988.94,0,0.0,0.0,0.5,3,60,7,3.34
394.0,0.47,732.84,988.94,0,0.0,0.0,1.0,3,60,7,3.37
394.0,0.47,732.84,988.94,0,0.0,0.0,1.5,3,60,7,3.47
394.0,0.47,732.84,988.94,0,0.0,0.0,2.0,3,60,7,3.54
394.0,0.47,732.84,988.94,0,0.0,0.0,2.5,3,60,7,3.26
394.0,0.47,732.84,988.94,0,0.0,0.0,0.0,0,0,14,4.43
394.0,0.47,732.84,988.94,0,0.0,0.0,0.5,3,60,14,4.49
394.0,0.47,732.84,988.94,0,0.0,0.0,1.0,3,60,14,4.64
394.0,0.47,732.84,988.94,0,0.0,0.0,1.5,3,60,14,4.78
394.0,0.47,732.84,988.94,0,0.0,0.0,2.0,3,60,14,4.96
394.0,0.47,732.84,988.94,0,0.0,0.0,2.5,3,60,14,4.45
394.0,0.47,732.84,988.94,0,0.0,0.0,0.0,0,0,28,4.84
394.0,0.47,732.84,988.94,0,0.0,0.0,0.5,3,60,28,4.85
394.0,0.47,732.84,988.94,0,0.0,0.0,1.0,3,60,28,4.9
394.0,0.47,732.84,988.94,0,0.0,0.0,1.5,3,60,28,4.93
394.0,0.47,732.84,988.94,0,0.0,0.0,2.0,3,60,28,5.0
394.0,0.47,732.84,988.94,0,0.0,0.0,2.5,3,60,28,4.82
417.15,0.45,952.0,653.54,0,0.0,4.17,0.0,0,0,7,2.00123
417.15,0.45,952.0,653.54,0,0.0,4.17,0.0,0,0,7,2.07457
417.15,0.45,952.0,653.54,0,0.0,4.17,0.25,3,50,7,2.1519
417.15,0.45,952.0,653.54,0,0.0,4.17,0.5,3,50,7,2.31692
417.15,0.45,952.0,653.54,0,0.0,4.17,0.75,3,50,7,2.30815
417.15,0.45,952.0,653.54,0,0.0,4.17,1.0,3,50,7,1.60662
417.15,0.45,952.0,653.54,0,0.0,4.17,0.0,0,0,14,2.23003
417.15,0.45,952.0,653.54,0,0.0,4.17,0.0,0,0,14,2.28025
417.15,0.45,952.0,653.54,0,0.0,4.17,0.25,3,50,14,2.31692
417.15,0.45,952.0,653.54,0,0.0,4.17,0.5,3,50,14,2.79444
417.15,0.45,952.0,653.54,0,0.0,4.17,0.75,3,50,14,2.48194
417.15,0.45,952.0,653.54,0,0.0,4.17,1.0,3,50,14,2.00123
417.15,0.45,952.0,653.54,0,0.0,4.17,0.0,0,0,28,2.45962
417.15,0.45,952.0,653.54,0,0.0,4.17,0.0,0,0,28,2.76176
417.15,0.45,952.0,653.54,0,0.0,4.17,0.25,3,50,28,2.78487
417.15,0.45,952.0,653.54,0,0.0,4.17,0.5,3,50,28,3.26638
417.15,0.45,952.0,653.54,0,0.0,4.17,0.75,3,50,28,2.94989
417.15,0.45,952.0,653.54,0,0.0,4.17,1.0,3,50,28,2.23003
380.0,0.47,730.0,1400.0,0,0.0,1.9,0.0,0,0,7,2.07
380.0,0.47,730.0,1400.0,0,0.0,1.9,0.5,4,30,7,2.47
380.0,0.47,730.0,1400.0,0,0.0,1.9,1.0,4,30,7,2.68
380.0,0.47,730.0,1400.0,0,0.0,1.9,1.5,4,30,7,2.42
380.0,0.47,730.0,1400.0,0,0.0,1.9,2.0,4,30,7,2.18
380.0,0.47,730.0,1400.0,0,0.0,1.9,0.0,0,0,28,2.35
380.0,0.47,730.0,1400.0,0,0.0,1.9,0.5,4,30,28,3.05
380.0,0.47,730.0,1400.0,0,0.0,1.9,1.0,4,30,28,3.46
380.0,0.47,730.0,1400.0,0,0.0,1.9,1.5,4,30,28,2.74
380.0,0.47,730.0,1400.0,0,0.0,1.9,2.0,4,30,28,2.51
400.0,0.45,693.0,1377.0,0,0.0,0.0,0.0,0,45,7,1.51949
400.0,0.45,693.0,1377.0,0,0.0,0.0,0.5,4,45,7,1.83217
400.0,0.45,693.0,1377.0,0,0.0,0.0,1.0,4,45,7,1.99667
400.0,0.45,693.0,1377.0,0,0.0,0.0,1.5,4,45,7,1.65138
400.0,0.45,693.0,1377.0,0,0.0,0.0,2.0,4,45,7,1.28979
400.0,0.45,693.0,1377.0,0,0.0,0.0,0.0,0,0,28,2.26243
400.0,0.45,693.0,1377.0,0,0.0,0.0,0.5,4,45,28,2.67567
400.0,0.45,693.0,1377.0,0,0.0,0.0,1.0,4,45,28,2.62644
400.0,0.45,693.0,1377.0,0,0.0,0.0,1.5,4,45,28,2.2132
400.0,0.45,693.0,1377.0,0,0.0,0.0,2.0,4,45,28,1.88201
353.0,0.55,699.0,1258.0,0,0.0,0.0,0.0,0,0,7,7.2165
353.0,0.55,698.0,1257.0,0,0.0,0.0,0.5,5,40,7,7.73675
353.0,0.55,697.0,1256.0,0,0.0,0.0,1.0,5,40,7,7.96
353.0,0.55,699.0,1258.0,0,0.0,0.0,0.0,0,0,14,8.13921
353.0,0.55,698.0,1257.0,0,0.0,0.0,0.5,5,40,14,8.02142
353.0,0.55,697.0,1256.0,0,0.0,0.0,1.0,5,40,14,8.11
353.0,0.55,699.0,1258.0,0,0.0,0.0,0.0,0,0,28,8.46969
353.0,0.55,698.0,1257.0,0,0.0,0.0,0.5,5,40,28,8.70855
353.0,0.55,697.0,1256.0,0,0.0,0.0,1.0,5,40,28,8.71
353.0,0.55,699.0,1258.0,0,0.0,0.0,0.0,0,0,56,8.66969
353.0,0.55,698.0,1257.0,0,0.0,0.0,0.5,5,40,56,8.80855
353.0,0.55,697.0,1256.0,0,0.0,0.0,1.0,5,40,56,8.81
243.0,0.55,709.0,1420.0,0,0.0,0.0,0.0,5,40,7,5.43978
243.0,0.55,709.0,1420.0,0,0.0,0.0,0.0,5,40,14,6.60135
243.0,0.55,709.0,1420.0,0,0.0,0.0,0.0,5,40,28,7.40628
243.0,0.55,708.0,1417.0,0,0.0,0.0,1.0,5,40,7,6.12691
243.0,0.55,708.0,1417.0,0,0.0,0.0,1.0,5,40,14,6.45738
243.0,0.55,708.0,1417.0,0,0.0,0.0,1.0,5,40,28,6.57845
467.4,0.42,595.1,999.1,0,0.0,0.0,0.0,0,10,7,2.45
467.4,0.42,595.1,999.1,0,0.0,0.0,0.0,0,10,28,2.57215
467.4,0.42,595.1,999.1,0,0.0,0.0,0.0,0,10,90,2.80196
467.4,0.42,595.1,999.1,0,0.0,0.0,0.25,1,10,7,2.76
467.4,0.42,595.1,999.1,0,0.0,0.0,0.25,1,10,28,2.87523
467.4,0.42,595.1,999.1,0,0.0,0.0,0.25,1,10,90,2.93361
467.4,0.42,595.1,999.1,0,0.0,0.0,0.5,1,10,7,2.966
467.4,0.42,595.1,999.1,0,0.0,0.0,0.5,1,10,28,3.00878
467.4,0.42,595.1,999.1,0,0.0,0.0,0.5,1,10,90,3.03261
467.4,0.42,595.1,999.1,0,0.0,0.0,1.0,1,10,7,2.79
467.4,0.42,595.1,999.1,0,0.0,0.0,1.0,1,10,28,2.82995
467.4,0.42,595.1,999.1,0,0.0,0.0,1.0,1,10,90,2.99179
467.4,0.42,595.1,999.1,0,0.0,0.0,0.0,0,20,7,2.444
467.4,0.42,595.1,999.1,0,0.0,0.0,0.0,0,20,28,2.55357
467.4,0.42,595.1,999.1,0,0.0,0.0,0.0,0,20,90,2.76114
467.4,0.42,595.1,999.1,0,0.0,0.0,0.25,1,20,7,2.722
467.4,0.42,595.1,999.1,0,0.0,0.0,0.25,1,20,28,2.80324
467.4,0.42,595.1,999.1,0,0.0,0.0,0.25,1,20,90,2.74481
467.4,0.42,595.1,999.1,0,0.0,0.0,0.5,1,20,7,3.177
467.4,0.42,595.1,999.1,0,0.0,0.0,0.5,1,20,28,3.23174
467.4,0.42,595.1,999.1,0,0.0,0.0,0.5,1,20,90,3.23978
467.4,0.42,595.1,999.1,0,0.0,0.0,1.0,1,20,7,2.89
467.4,0.42,595.1,999.1,0,0.0,0.0,1.0,1,20,28,2.99136
467.4,0.42,595.1,999.1,0,0.0,0.0,1.0,1,20,90,2.57948
534.0,0.3,692.0,1050.0,0,0.0,5.6,0.1,1,10,28,5.09
534.0,0.32,692.0,1050.0,0,0.0,5.6,0.2,1,10,28,5.67
534.0,0.34,692.0,1050.0,0,0.0,5.6,0.35,1,10,28,5.07
534.0,0.3,692.0,1050.0,0,0.0,5.6,0.1,1,15,28,4.68
534.0,0.32,692.0,1050.0,0,0.0,5.6,0.2,1,15,28,4.59
534.0,0.34,692.0,1050.0,0,0.0,5.6,0.35,1,15,28,4.46
534.0,0.3,692.0,1050.0,0,0.0,5.6,0.1,1,25,28,4.07
534.0,0.32,692.0,1050.0,0,0.0,5.6,0.2,1,25,28,4.17
534.0,0.34,692.0,1050.0,0,0.0,5.6,0.35,1,25,28,4.36
418.0,0.55,710.0,1022.0,0,0.0,0.0,0.0,0,0,7,2.58695
418.0,0.55,710.0,1022.0,0,0.0,0.0,0.0,0,0,28,3.30888
418.0,0.55,710.0,1022.0,0,0.0,0.0,0.5,2,25,7,2.20304
418.0,0.55,710.0,1022.0,0,0.0,0.0,0.5,2,25,28,3.19934
418.0,0.55,710.0,1022.0,0,0.0,0.0,0.75,2,25,7,2.49306
418.0,0.55,710.0,1022.0,0,0.0,0.0,0.75,2,25,28,3.40278
418.0,0.55,710.0,1022.0,0,0.0,0.0,1.0,2,25,7,1.98395
418.0,0.55,710.0,1022.0,0,0.0,0.0,1.0,2,25,28,3.00321
418.0,0.55,710.0,1022.0,0,0.0,0.0,1.5,2,25,7,1.58439
418.0,0.55,710.0,1022.0,0,0.0,0.0,1.5,2,25,28,2.28963
418.0,0.55,710.0,1022.0,0,0.0,0.0,2.0,2,25,7,1.16813
418.0,0.55,710.0,1022.0,0,0.0,0.0,2.0,2,25,28,2.08619
418.0,0.55,710.0,1022.0,0,0.0,0.0,0.5,2,50,7,2.30527
418.0,0.55,710.0,1022.0,0,0.0,0.0,0.5,2,50,28,3.30054
418.0,0.55,710.0,1022.0,0,0.0,0.0,0.75,2,50,7,2.70484
418.0,0.55,710.0,1022.0,0,0.0,0.0,0.75,2,50,28,3.52066
418.0,0.55,710.0,1022.0,0,0.0,0.0,1.0,2,50,7,2.09349
418.0,0.55,710.0,1022.0,0,0.0,0.0,1.0,2,50,28,2.79143
418.0,0.55,710.0,1022.0,0,0.0,0.0,1.5,2,50,7,1.50614
418.0,0.55,710.0,1022.0,0,0.0,0.0,1.5,2,50,28,2.18739
418.0,0.55,710.0,1022.0,0,0.0,0.0,2.0,2,50,7,1.37991
418.0,0.55,710.0,1022.0,0,0.0,0.0,2.0,2,50,28,2.39917
455.0,0.264,589.0,1219.0,0,80.25,1.2,0.0,0,0,7,5.46681
455.0,0.264,589.0,1219.0,0,80.25,1.2,0.5,6,40,7,5.62903
455.0,0.264,589.0,1219.0,0,80.25,1.2,1.0,6,40,7,5.59086
455.0,0.264,589.0,1219.0,0,80.25,1.2,1.5,6,40,7,5.67197
455.0,0.264,589.0,1219.0,0,80.25,1.2,2.0,6,40,7,5.52884
455.0,0.264,589.0,1219.0,0,80.25,1.2,0.0,0,0,28,7.07945
455.0,0.264,589.0,1219.0,0,80.25,1.2,0.5,6,40,28,7.30369
455.0,0.264,589.0,1219.0,0,80.25,1.2,1.0,6,40,28,7.2035
455.0,0.264,589.0,1219.0,0,80.25,1.2,1.5,6,40,28,7.26553
455.0,0.264,589.0,1219.0,0,80.25,1.2,2.0,6,40,28,7.2035
455.0,0.264,589.0,1219.0,0,80.25,1.2,0.0,0,0,56,7.57088
455.0,0.264,589.0,1219.0,0,80.25,1.2,0.5,6,40,56,7.85714
455.0,0.264,589.0,1219.0,0,80.25,1.2,1.0,6,40,56,7.69016
455.0,0.264,589.0,1219.0,0,80.25,1.2,1.5,6,40,56,7.77126
455.0,0.264,589.0,1219.0,0,80.25,1.2,2.0,6,40,56,7.71401
455.0,0.264,589.0,1219.0,0,80.25,1.2,0.0,0,0,90,7.8142
455.0,0.264,589.0,1219.0,0,80.25,1.2,0.5,6,40,90,8.00028
455.0,0.264,589.0,1219.0,0,80.25,1.2,1.0,6,40,90,7.93825
455.0,0.264,589.0,1219.0,0,80.25,1.2,1.5,6,40,90,7.95734
455.0,0.264,589.0,1219.0,0,80.25,1.2,2.0,6,40,90,7.87623
461.0,0.52,739.0,898.0,0,0.0,0.0,0.0,0,0,7,3.03
461.0,0.52,739.0,898.0,0,0.0,0.0,0.5,1,20,7,2.98
461.0,0.52,739.0,898.0,0,0.0,0.0,1.0,1,20,7,3.07
461.0,0.52,739.0,898.0,0,0.0,0.0,1.5,1,20,7,2.86
461.0,0.52,739.0,898.0,0,0.0,0.0,2.0,1,20,7,2.66
461.0,0.52,739.0,898.0,0,0.0,0.0,2.5,1,20,7,2.58
461.0,0.52,739.0,898.0,0,0.0,0.0,3.0,1,20,7,2.34
461.0,0.52,739.0,898.0,0,0.0,0.0,0.5,1,40,7,3.18
461.0,0.52,739.0,898.0,0,0.0,0.0,1.0,1,40,7,3.27
461.0,0.52,739.0,898.0,0,0.0,0.0,1.5,1,40,7,3.14
461.0,0.52,739.0,898.0,0,0.0,0.0,2.0,1,40,7,2.96
461.0,0.52,739.0,898.0,0,0.0,0.0,2.5,1,40,7,2.78
461.0,0.52,739.0,898.0,0,0.0,0.0,3.0,1,40,7,2.53
461.0,0.52,739.0,898.0,0,0.0,0.0,0.0,0,0,28,3.35
461.0,0.52,739.0,898.0,0,0.0,0.0,0.5,1,20,28,3.31
461.0,0.52,739.0,898.0,0,0.0,0.0,1.0,1,20,28,3.32
461.0,0.52,739.0,898.0,0,0.0,0.0,1.5,1,20,28,3.02
461.0,0.52,739.0,898.0,0,0.0,0.0,2.0,1,20,28,2.97
461.0,0.52,739.0,898.0,0,0.0,0.0,2.5,1,20,28,2.72
461.0,0.52,739.0,898.0,0,0.0,0.0,3.0,1,20,28,2.61
461.0,0.52,739.0,898.0,0,0.0,0.0,0.5,1,40,28,3.39
461.0,0.52,739.0,898.0,0,0.0,0.0,1.0,1,40,28,3.58
461.0,0.52,739.0,898.0,0,0.0,0.0,1.5,1,40,28,3.46
461.0,0.52,739.0,898.0,0,0.0,0.0,2.0,1,40,28,3.29
461.0,0.52,739.0,898.0,0,0.0,0.0,2.5,1,40,28,3.02
461.0,0.52,739.0,898.0,0,0.0,0.0,3.0,1,40,28,2.89
810.0,0.4,648.0,648.0,0,0.0,2.65,0.0,0,0,1,2.1
810.0,0.4,648.0,648.0,0,0.0,2.65,1.2,2,35,1,3.5
806.0,0.4,645.0,645.0,0,0.0,2.65,2.4,2,35,1,4.1
810.0,0.4,648.0,648.0,0,0.0,2.65,0.0,0,0,28,2.9
810.0,0.4,648.0,648.0,0,0.0,2.65,1.2,2,35,28,3.8
806.0,0.4,645.0,645.0,0,0.0,2.65,2.4,2,35,28,4.9
513.0,0.4,600.0,1035.0,0,0.0,0.0,0.0,0,0,7,1.73
513.0,0.4,600.0,1035.0,0,0.0,2.2059,0.5,4,30,7,2.17
513.0,0.4,600.0,1035.0,0,0.0,3.7962,1.0,4,30,7,2.54
513.0,0.4,600.0,1035.0,0,0.0,5.643,1.5,4,30,7,2.36
513.0,0.4,600.0,1035.0,0,51.3,14.877,1.0,4,30,7,2.16
513.0,0.4,600.0,1035.0,0,102.6,17.442,1.0,4,30,7,2.34
513.0,0.4,600.0,1035.0,0,0.0,0.0,0.0,0,0,28,2.42
513.0,0.4,600.0,1035.0,0,0.0,2.2059,0.5,4,30,28,2.69
513.0,0.4,600.0,1035.0,0,0.0,3.7962,1.0,4,30,28,3.21
513.0,0.4,600.0,1035.0,0,0.0,5.643,1.5,4,30,28,2.95
513.0,0.4,600.0,1035.0,0,51.3,14.877,1.0,4,30,28,2.76
513.0,0.4,600.0,1035.0,0,102.6,17.442,1.0,4,30,28,3.0
513.0,0.4,600.0,1035.0,0,153.9,20.52,1.0,4,30,28,2.37
513.7,0.4,600.0,1035.0,0,0.0,0.0,0.0,0,0,90,2.97
513.0,0.4,600.0,1035.0,0,0.0,2.2059,0.5,4,30,90,3.2
513.0,0.4,600.0,1035.0,0,0.0,3.7962,1.0,4,30,90,3.56
513.0,0.4,600.0,1035.0,0,0.0,5.643,1.5,4,30,90,3.32
513.0,0.4,600.0,1035.0,0,51.3,14.877,1.0,4,30,90,3.3
513.0,0.4,600.0,1035.0,0,102.6,17.442,1.0,4,30,90,3.59
500.0,0.36,523.7,1221.9,0,0.0,0.0,0.0,0,0,1,2.2
500.0,0.414,486.6,1135.4,100,0.0,0.0,0.0,0,0,1,1.9
500.0,0.482,472.3,1102.0,100,0.0,0.0,0.0,0,0,1,1.5
454.5,0.277228,551.2,1286.1,0,45.5,15.0,0.0,0,0,1,2.9
454.5,0.341034,512.5,1195.0,100,45.5,15.0,0.0,0,0,1,2.7
454.5,0.440484,497.1,1159.9,100,45.5,15.0,0.0,0,0,1,2.4
500.0,0.36,523.7,1221.9,0,0.0,0.0,0.0,0,0,1,2.4
500.0,0.36,485.5,1132.0,100,0.0,0.0,0.0,0,0,1,2.3
500.0,0.4286,470.3,1097.4,100,0.0,0.0,0.0,0,0,1,2.1
454.5,0.277228,551.2,1286.1,0,45.5,15.0,0.0,0,0,1,3.6
454.5,0.292849,511.0,1191.4,100,45.5,15.0,0.0,0,0,1,3.3
454.5,0.387239,495.0,1155.0,100,45.5,15.0,0.0,0,0,1,2.9
500.0,0.36,523.7,1221.9,0,0.0,0.0,0.0,0,0,1,2.4
500.0,0.36,485.5,1132.0,100,0.0,0.0,0.0,0,0,1,2.3
500.0,0.4458,470.3,1097.4,100,0.0,0.0,0.0,0,0,1,2.1
454.5,0.277228,551.2,1286.1,0,45.5,15.0,0.0,0,0,1,3.6
454.5,0.29923,511.0,1191.4,100,45.5,15.0,0.0,0,0,1,3.5
454.5,0.355776,495.0,1155.0,100,45.5,15.0,0.0,0,0,1,2.9
500.0,0.36,523.7,1221.9,0,0.0,0.0,0.0,0,0,1,2.4
500.0,0.3754,488.5,1138.9,100,0.0,0.0,0.0,0,0,1,1.8
500.0,0.4924,474.3,1106.7,100,0.0,0.0,0.0,0,0,1,1.8
454.5,0.277228,551.2,1286.1,0,45.5,15.0,0.0,0,0,1,3.6
454.5,0.289109,514.1,1198.7,100,45.5,15.0,0.0,0,0,1,3.2
500.0,0.36,523.7,1221.9,0,0.0,0.0,0.0,0,0,1,2.4
500.0,0.36,491.0,1145.7,100,0.0,0.0,0.0,0,0,1,2.0
500.0,0.4134,478.2,1115.8,100,0.0,0.0,0.0,0,0,1,1.7
454.5,0.277228,551.2,1286.1,0,45.5,15.0,0.0,0,0,1,3.6
454.5,0.277228,516.8,1205.8,100,45.5,15.0,0.0,0,0,1,2.7
454.5,0.293289,503.3,1174.5,100,45.5,15.0,0.0,0,0,1,2.4
500.0,0.36,523.7,1221.9,0,0.0,0.0,0.0,0,0,3,3.1
500.0,0.414,486.6,1135.4,100,0.0,0.0,0.0,0,0,3,2.9
500.0,0.482,472.3,1102.0,100,0.0,0.0,0.0,0,0,3,2.4
454.5,0.277228,551.2,1286.1,0,45.5,15.0,0.0,0,0,3,3.6
454.5,0.341034,512.5,1195.0,100,45.5,15.0,0.0,0,0,3,3.3
454.5,0.440484,497.1,1159.9,100,45.5,15.0,0.0,0,0,3,2.9
500.0,0.36,523.7,1221.9,0,0.0,0.0,0.0,0,0,3,2.9
500.0,0.36,485.5,1132.0,100,0.0,0.0,0.0,0,0,3,2.7
500.0,0.4286,470.3,1097.4,100,0.0,0.0,0.0,0,0,3,2.4
454.5,0.277228,551.2,1286.1,0,45.5,15.0,0.0,0,0,3,4.4
454.5,0.292849,511.0,1191.4,100,45.5,15.0,0.0,0,0,3,4.2
454.5,0.387239,495.0,1155.0,100,45.5,15.0,0.0,0,0,3,3.8
500.0,0.36,523.7,1221.9,0,0.0,0.0,0.0,0,0,3,2.9
500.0,0.36,485.5,1132.0,100,0.0,0.0,0.0,0,0,3,3.0
500.0,0.4458,470.3,1097.4,100,0.0,0.0,0.0,0,0,3,3.0
454.5,0.277228,551.2,1286.1,0,45.5,15.0,0.0,0,0,3,4.4
454.5,0.29923,511.0,1191.4,100,45.5,15.0,0.0,0,0,3,3.9
454.5,0.355776,495.0,1155.0,100,45.5,15.0,0.0,0,0,3,3.5
500.0,0.36,523.7,1221.9,0,0.0,0.0,0.0,0,0,3,2.9
500.0,0.3754,488.5,1138.9,100,0.0,0.0,0.0,0,0,3,2.7
500.0,0.4924,474.3,1106.7,100,0.0,0.0,0.0,0,0,3,2.4
454.5,0.277228,551.2,1286.1,0,45.5,15.0,0.0,0,0,3,4.4
454.5,0.289109,514.1,1198.7,100,45.5,15.0,0.0,0,0,3,3.8
500.0,0.36,523.7,1221.9,0,0.0,0.0,0.0,0,0,3,2.9
500.0,0.36,491.0,1145.7,100,0.0,0.0,0.0,0,0,3,2.9
500.0,0.4134,478.2,1115.8,100,0.0,0.0,0.0,0,0,3,2.6
454.5,0.277228,551.2,1286.1,0,45.5,15.0,0.0,0,0,3,4.4
454.5,0.277228,516.8,1205.8,100,45.5,15.0,0.0,0,0,3,3.6
454.5,0.293289,503.3,1174.5,100,45.5,15.0,0.0,0,0,3,3.3
500.0,0.36,523.7,1221.9,0,0.0,0.0,0.0,0,0,7,3.5
500.0,0.414,486.6,1135.4,100,0.0,0.0,0.0,0,0,7,3.3
500.0,0.482,472.3,1102.0,100,0.0,0.0,0.0,0,0,7,2.9
454.5,0.277228,551.2,1286.1,0,45.5,15.0,0.0,0,0,7,4.2
454.5,0.341034,512.5,1195.0,100,45.5,15.0,0.0,0,0,7,3.7
454.5,0.440484,497.1,1159.9,100,45.5,15.0,0.0,0,0,7,3.4
500.0,0.36,523.7,1221.9,0,0.0,0.0,0.0,0,0,7,3.2
500.0,0.36,485.5,1132.0,100,0.0,0.0,0.0,0,0,7,3.0
500.0,0.4286,470.3,1097.4,100,0.0,0.0,0.0,0,0,7,2.7
454.5,0.277228,551.2,1286.1,0,45.5,15.0,0.0,0,0,7,5.1
454.5,0.292849,511.0,1191.4,100,45.5,15.0,0.0,0,0,7,4.7
454.5,0.387239,495.0,1155.0,100,45.5,15.0,0.0,0,0,7,4.2
500.0,0.36,523.7,1221.9,0,0.0,0.0,0.0,0,0,7,3.2
500.0,0.36,485.5,1132.0,100,0.0,0.0,0.0,0,0,7,3.4
500.0,0.4458,470.3,1097.4,100,0.0,0.0,0.0,0,0,7,3.3
454.5,0.277228,551.2,1286.1,0,45.5,15.0,0.0,0,0,7,5.1
454.5,0.29923,511.0,1191.4,100,45.5,15.0,0.0,0,0,7,4.3
454.5,0.355776,495.0,1155.0,100,45.5,15.0,0.0,0,0,7,4.0
500.0,0.36,523.7,1221.9,0,0.0,0.0,0.0,0,0,7,3.2
500.0,0.3754,488.5,1138.9,100,0.0,0.0,0.0,0,0,7,3.0
500.0,0.4924,474.3,1106.7,100,0.0,0.0,0.0,0,0,7,2.8
454.5,0.277228,551.2,1286.1,0,45.5,15.0,0.0,0,0,7,5.1
454.5,0.289109,514.1,1198.7,100,45.5,15.0,0.0,0,0,7,4.2
500.0,0.36,523.7,1221.9,0,0.0,0.0,0.0,0,0,7,3.2
500.0,0.36,491.0,1145.7,100,0.0,0.0,0.0,0,0,7,3.3
500.0,0.4134,478.2,1115.8,100,0.0,0.0,0.0,0,0,7,3.0
454.5,0.277228,551.2,1286.1,0,45.5,15.0,0.0,0,0,7,5.1
454.5,0.277228,516.8,1205.8,100,45.5,15.0,0.0,0,0,7,4.1
454.5,0.293289,503.3,1174.5,100,45.5,15.0,0.0,0,0,7,3.8
500.0,0.36,523.7,1221.9,0,0.0,0.0,0.0,0,0,14,3.8
500.0,0.414,486.6,1135.4,100,0.0,0.0,0.0,0,0,14,3.7
500.0,0.482,472.3,1102.0,100,0.0,0.0,0.0,0,0,14,3.2
454.5,0.277228,551.2,1286.1,0,45.5,15.0,0.0,0,0,14,4.6
454.5,0.341034,512.5,1195.0,100,45.5,15.0,0.0,0,0,14,4.1
454.5,0.440484,497.1,1159.9,100,45.5,15.0,0.0,0,0,14,3.9
500.0,0.36,523.7,1221.9,0,0.0,0.0,0.0,0,0,14,3.4
500.0,0.36,485.5,1132.0,100,0.0,0.0,0.0,0,0,14,3.2
500.0,0.4286,470.3,1097.4,100,0.0,0.0,0.0,0,0,14,3.0
454.5,0.277228,551.2,1286.1,0,45.5,15.0,0.0,0,0,14,5.5
454.5,0.292849,511.0,1191.4,100,45.5,15.0,0.0,0,0,14,5.1
454.5,0.387239,495.0,1155.0,100,45.5,15.0,0.0,0,0,14,4.5
500.0,0.36,523.7,1221.9,0,0.0,0.0,0.0,0,0,14,3.4
500.0,0.36,485.5,1132.0,100,0.0,0.0,0.0,0,0,14,3.7
500.0,0.4458,470.3,1097.4,100,0.0,0.0,0.0,0,0,14,3.5
454.5,0.277228,551.2,1286.1,0,45.5,15.0,0.0,0,0,14,5.5
454.5,0.29923,511.0,1191.4,100,45.5,15.0,0.0,0,0,14,4.8
454.5,0.355776,495.0,1155.0,100,45.5,15.0,0.0,0,0,14,4.4
500.0,0.36,523.7,1221.9,0,0.0,0.0,0.0,0,0,14,3.4
500.0,0.3754,488.5,1138.9,100,0.0,0.0,0.0,0,0,14,3.3
500.0,0.4924,474.3,1106.7,100,0.0,0.0,0.0,0,0,14,3.1
454.5,0.277228,551.2,1286.1,0,45.5,15.0,0.0,0,0,14,5.5
454.5,0.289109,514.1,1198.7,100,45.5,15.0,0.0,0,0,14,4.4
500.0,0.36,523.7,1221.9,0,0.0,0.0,0.0,0,0,14,3.4
500.0,0.36,491.0,1145.7,100,0.0,0.0,0.0,0,0,14,3.6
500.0,0.4134,478.2,1115.8,100,0.0,0.0,0.0,0,0,14,3.2
454.5,0.277228,551.2,1286.1,0,45.5,15.0,0.0,0,0,14,5.5
454.5,0.277228,516.8,1205.8,100,45.5,15.0,0.0,0,0,14,4.5
454.5,0.293289,503.3,1174.5,100,45.5,15.0,0.0,0,0,14,4.3
500.0,0.36,523.7,1221.9,0,0.0,0.0,0.0,0,0,28,4.1
500.0,0.414,486.6,1135.4,100,0.0,0.0,0.0,0,0,28,4.0
500.0,0.482,472.3,1102.0,100,0.0,0.0,0.0,0,0,28,3.5
454.5,0.277228,551.2,1286.1,0,45.5,15.0,0.0,0,0,28,5.0
454.5,0.341034,512.5,1195.0,100,45.5,15.0,0.0,0,0,28,4.5
454.5,0.440484,497.1,1159.9,100,45.5,15.0,0.0,0,0,28,4.3
500.0,0.36,523.7,1221.9,0,0.0,0.0,0.0,0,0,28,3.6
500.0,0.36,485.5,1132.0,100,0.0,0.0,0.0,0,0,28,3.4
500.0,0.4286,470.3,1097.4,100,0.0,0.0,0.0,0,0,28,3.2
454.5,0.277228,551.2,1286.1,0,45.5,15.0,0.0,0,0,28,5.8
454.5,0.292849,511.0,1191.4,100,45.5,15.0,0.0,0,0,28,5.3
454.5,0.387239,495.0,1155.0,100,45.5,15.0,0.0,0,0,28,4.8
500.0,0.36,523.7,1221.9,0,0.0,0.0,0.0,0,0,28,3.6
500.0,0.36,485.5,1132.0,100,0.0,0.0,0.0,0,0,28,4.0
500.0,0.4458,470.3,1097.4,100,0.0,0.0,0.0,0,0,28,3.6
454.5,0.277228,551.2,1286.1,0,45.5,15.0,0.0,0,0,28,5.8
454.5,0.29923,511.0,1191.4,100,45.5,15.0,0.0,0,0,28,5.2
454.5,0.355776,495.0,1155.0,100,45.5,15.0,0.0,0,0,28,4.8
500.0,0.36,523.7,1221.9,0,0.0,0.0,0.0,0,0,28,3.6
500.0,0.3754,488.5,1138.9,100,0.0,0.0,0.0,0,0,28,3.5
500.0,0.4924,474.3,1106.7,100,0.0,0.0,0.0,0,0,28,3.2
454.5,0.277228,551.2,1286.1,0,45.5,15.0,0.0,0,0,28,5.8
454.5,0.289109,514.1,1198.7,100,45.5,15.0,0.0,0,0,28,4.6
500.0,0.36,523.7,1221.9,0,0.0,0.0,0.0,0,0,28,3.6
500.0,0.36,491.0,1145.7,100,0.0,0.0,0.0,0,0,28,3.8
500.0,0.4134,478.2,1115.8,100,0.0,0.0,0.0,0,0,28,3.5
454.5,0.277228,551.2,1286.1,0,45.5,15.0,0.0,0,0,28,5.8
454.5,0.277228,516.8,1205.8,100,45.5,15.0,0.0,0,0,28,4.8
454.5,0.293289,503.3,1174.5,100,45.5,15.0,0.0,0,0,28,4.6
500.0,0.36,523.7,1221.9,0,0.0,0.0,0.0,0,0,56,4.2
500.0,0.414,486.6,1135.4,100,0.0,0.0,0.0,0,0,56,4.3
500.0,0.482,472.3,1102.0,100,0.0,0.0,0.0,0,0,56,3.8
454.5,0.277228,551.2,1286.1,0,45.5,15.0,0.0,0,0,56,5.3
454.5,0.341034,512.5,1195.0,100,45.5,15.0,0.0,0,0,56,4.9
454.5,0.440484,497.1,1159.9,100,45.5,15.0,0.0,0,0,56,4.5
500.0,0.36,523.7,1221.9,0,0.0,0.0,0.0,0,0,56,3.8
500.0,0.36,485.5,1132.0,100,0.0,0.0,0.0,0,0,56,3.6
500.0,0.4286,470.3,1097.4,100,0.0,0.0,0.0,0,0,56,3.5
454.5,0.277228,551.2,1286.1,0,45.5,15.0,0.0,0,0,56,6.1
454.5,0.292849,511.0,1191.4,100,45.5,15.0,0.0,0,0,56,5.5
454.5,0.387239,495.0,1155.0,100,45.5,15.0,0.0,0,0,56,5.0
500.0,0.36,523.7,1221.9,0,0.0,0.0,0.0,0,0,56,3.8
500.0,0.36,485.5,1132.0,100,0.0,0.0,0.0,0,0,56,4.2
500.0,0.4458,470.3,1097.4,100,0.0,0.0,0.0,0,0,56,3.7
454.5,0.277228,551.2,1286.1,0,45.5,15.0,0.0,0,0,56,6.1
454.5,0.29923,511.0,1191.4,100,45.5,15.0,0.0,0,0,56,5.5
454.5,0.355776,495.0,1155.0,100,45.5,15.0,0.0,0,0,56,5.1
500.0,0.36,523.7,1221.9,0,0.0,0.0,0.0,0,0,56,3.8
500.0,0.3754,488.5,1138.9,100,0.0,0.0,0.0,0,0,56,3.7
500.0,0.4924,474.3,1106.7,100,0.0,0.0,0.0,0,0,56,3.3
454.5,0.277228,551.2,1286.1,0,45.5,15.0,0.0,0,0,56,6.1
454.5,0.289109,514.1,1198.7,100,45.5,15.0,0.0,0,0,56,4.8
500.0,0.36,523.7,1221.9,0,0.0,0.0,0.0,0,0,56,3.8
500.0,0.36,491.0,1145.7,100,0.0,0.0,0.0,0,0,56,4.1
500.0,0.4134,478.2,1115.8,100,0.0,0.0,0.0,0,0,56,3.8
454.5,0.277228,551.2,1286.1,0,45.5,15.0,0.0,0,0,56,6.1
454.5,0.277228,516.8,1205.8,100,45.5,15.0,0.0,0,0,56,5.1
454.5,0.293289,503.3,1174.5,100,45.5,15.0,0.0,0,0,56,4.9
500.0,0.36,523.7,1221.9,0,0.0,0.0,0.0,0,0,90,4.4
500.0,0.414,486.6,1135.4,100,0.0,0.0,0.0,0,0,90,4.5
500.0,0.482,472.3,1102.0,100,0.0,0.0,0.0,0,0,90,3.9
454.5,0.277228,551.2,1286.1,0,45.5,15.0,0.0,0,0,90,5.4
454.5,0.341034,512.5,1195.0,100,45.5,15.0,0.0,0,0,90,5.1
454.5,0.440484,497.1,1159.9,100,45.5,15.0,0.0,0,0,90,4.7
500.0,0.36,523.7,1221.9,0,0.0,0.0,0.0,0,0,90,3.9
500.0,0.36,485.5,1132.0,100,0.0,0.0,0.0,0,0,90,3.8
500.0,0.4286,470.3,1097.4,100,0.0,0.0,0.0,0,0,90,3.7
454.5,0.277228,551.2,1286.1,0,45.5,15.0,0.0,0,0,90,6.2
454.5,0.292849,511.0,1191.4,100,45.5,15.0,0.0,0,0,90,5.6
454.5,0.387239,495.0,1155.0,100,45.5,15.0,0.0,0,0,90,5.1
500.0,0.36,523.7,1221.9,0,0.0,0.0,0.0,0,0,90,3.9
500.0,0.36,485.5,1132.0,100,0.0,0.0,0.0,0,0,90,4.3
500.0,0.4458,470.3,1097.4,100,0.0,0.0,0.0,0,0,90,3.8
454.5,0.277228,551.2,1286.1,0,45.5,15.0,0.0,0,0,90,6.2
454.5,0.29923,511.0,1191.4,100,45.5,15.0,0.0,0,0,90,5.7
454.5,0.355776,495.0,1155.0,100,45.5,15.0,0.0,0,0,90,5.3
500.0,0.36,523.7,1221.9,0,0.0,0.0,0.0,0,0,90,3.9
500.0,0.3754,488.5,1138.9,100,0.0,0.0,0.0,0,0,90,3.8
500.0,0.4924,474.3,1106.7,100,0.0,0.0,0.0,0,0,90,3.5
454.5,0.277228,551.2,1286.1,0,45.5,15.0,0.0,0,0,90,6.2
454.5,0.289109,514.1,1198.7,100,45.5,15.0,0.0,0,0,90,5.0
500.0,0.36,523.7,1221.9,0,0.0,0.0,0.0,0,0,90,3.9
500.0,0.36,491.0,1145.7,100,0.0,0.0,0.0,0,0,90,4.3
500.0,0.4134,478.2,1115.8,100,0.0,0.0,0.0,0,0,90,4.1
454.5,0.277228,551.2,1286.1,0,45.5,15.0,0.0,0,0,90,6.2
454.5,0.277228,516.8,1205.8,100,45.5,15.0,0.0,0,0,90,5.3
454.5,0.293289,503.3,1174.5,100,45.5,15.0,0.0,0,0,90,5.1